File: Datasets/xrd_sample.txt
XRD_sample ‚óè Full Chart; d-I
Wavelength = 1.54059
17.65946	117.00
17.51940	101.00
17.38154	124.00
17.24584	96.00
17.11224	123.00
16.98070	96.00
16.85116	90.00
16.72359	122.00
16.59794	99.00
16.47416	108.00
16.35222	95.00
16.23207	115.00
16.11368	97.00
15.99700	90.00
15.88201	105.00
15.76865	105.00
15.65691	90.00
15.54674	129.00
15.43811	113.00
15.33099	115.00
15.22535	108.00
15.12115	110.00
15.01838	103.00
14.91699	111.00
14.81697	132.00
14.71828	107.00
14.62089	125.00
14.52479	104.00
14.42995	101.00
14.33634	92.00
14.24393	105.00
14.15272	95.00
14.06266	117.00
13.97375	99.00
13.88595	100.00
13.79925	125.00
13.71363	104.00
13.62907	105.00
13.54554	120.00
13.46304	111.00
13.38153	100.00
13.30101	94.00
13.22146	112.00
13.14285	98.00
13.06517	143.00
12.98840	114.00
12.91254	113.00
12.83755	95.00
12.76344	111.00
12.69017	114.00
12.61775	113.00
12.54614	99.00
12.47535	104.00
12.40536	107.00
12.33614	100.00
12.26770	105.00
12.20001	99.00
12.13306	89.00
12.06685	101.00
12.00136	107.00
11.93658	134.00
11.87249	92.00
11.80909	96.00
11.74637	105.00
11.68431	121.00
11.62290	123.00
11.56214	117.00
11.50201	122.00
11.44250	101.00
11.38361	120.00
11.32532	99.00
11.26763	106.00
11.21052	99.00
11.15399	116.00
11.09803	108.00
11.04263	109.00
10.98778	104.00
10.93348	113.00
10.87971	117.00
10.82646	133.00
10.77374	100.00
10.72153	127.00
10.66983	122.00
10.61862	109.00
10.56790	113.00
10.51767	118.00
10.46791	91.00
10.41862	106.00
10.36980	111.00
10.32143	121.00
10.27351	100.00
10.22604	113.00
10.17901	115.00
10.13240	114.00
10.08623	126.00
10.04047	98.00
9.99513	122.00
9.95019	123.00
9.90566	138.00
9.86153	131.00
9.81779	120.00
9.77444	109.00
9.73147	100.00
9.68888	127.00
9.64666	116.00
9.60481	117.00
9.56332	120.00
9.52218	107.00
9.48141	117.00
9.44098	113.00
9.40089	123.00
9.36115	114.00
9.32174	138.00
9.28266	108.00
9.24391	118.00
9.20548	115.00
9.16738	137.00
9.12958	119.00
9.09210	116.00
9.05493	127.00
9.01806	140.00
8.98149	118.00
8.94522	118.00
8.90924	126.00
8.87355	119.00
8.83814	134.00
8.80302	109.00
8.76818	131.00
8.73361	134.00
8.69932	121.00
8.66529	134.00
8.63153	131.00
8.59804	122.00
8.56480	123.00
8.53182	118.00
8.49910	128.00
8.46662	115.00
8.43440	123.00
8.40242	125.00
8.37068	134.00
8.33918	147.00
8.30792	130.00
8.27689	149.00
8.24610	138.00
8.21553	100.00
8.18520	136.00
8.15508	116.00
8.12519	124.00
8.09552	127.00
8.06606	119.00
8.03682	124.00
8.00779	128.00
7.97897	125.00
7.95036	136.00
7.92195	137.00
7.89375	127.00
7.86575	141.00
7.83795	156.00
7.81034	119.00
7.78293	122.00
7.75571	111.00
7.72868	128.00
7.70184	143.00
7.67519	132.00
7.64872	136.00
7.62244	123.00
7.59633	142.00
7.57041	142.00
7.54466	124.00
7.51909	136.00
7.49369	143.00
7.46846	131.00
7.44340	163.00
7.41852	135.00
7.39379	143.00
7.36924	144.00
7.34484	154.00
7.32061	148.00
7.29654	155.00
7.27263	142.00
7.24888	145.00
7.22528	155.00
7.20183	155.00
7.17854	131.00
7.15540	144.00
7.13240	170.00
7.10956	167.00
7.08686	145.00
7.06431	151.00
7.04190	173.00
7.01964	127.00
6.99751	147.00
6.97553	159.00
6.95368	152.00
6.93197	166.00
6.91040	159.00
6.88896	156.00
6.86766	175.00
6.84649	150.00
6.82545	153.00
6.80453	179.00
6.78375	174.00
6.76309	149.00
6.74257	158.00
6.72216	165.00
6.70188	161.00
6.68172	163.00
6.66169	152.00
6.64177	161.00
6.62198	169.00
6.60230	163.00
6.58274	189.00
6.56330	152.00
6.54397	155.00
6.52475	181.00
6.50565	169.00
6.48666	158.00
6.46779	185.00
6.44902	168.00
6.43036	171.00
6.41181	171.00
6.39337	167.00
6.37504	181.00
6.35681	165.00
6.33868	177.00
6.32066	186.00
6.30275	174.00
6.28493	182.00
6.26722	173.00
6.24960	187.00
6.23209	193.00
6.21467	202.00
6.19735	173.00
6.18013	178.00
6.16301	190.00
6.14598	217.00
6.12904	169.00
6.11220	191.00
6.09545	171.00
6.07880	199.00
6.06223	166.00
6.04576	202.00
6.02937	175.00
6.01308	192.00
5.99687	205.00
5.98076	192.00
5.96473	201.00
5.94878	189.00
5.93292	198.00
5.91715	198.00
5.90146	216.00
5.88585	212.00
5.87033	205.00
5.85489	213.00
5.83953	225.00
5.82426	197.00
5.80906	212.00
5.79394	207.00
5.77890	203.00
5.76395	219.00
5.74906	241.00
5.73426	224.00
5.71953	229.00
5.70488	198.00
5.69031	240.00
5.67580	200.00
5.66138	228.00
5.64703	245.00
5.63275	193.00
5.61854	228.00
5.60441	222.00
5.59034	208.00
5.57635	231.00
5.56243	225.00
5.54858	244.00
5.53480	215.00
5.52109	251.00
5.50744	231.00
5.49387	217.00
5.48036	240.00
5.46692	246.00
5.45354	247.00
5.44023	250.00
5.42699	249.00
5.41381	225.00
5.40069	265.00
5.38764	235.00
5.37466	263.00
5.36173	237.00
5.34887	249.00
5.33607	269.00
5.32334	270.00
5.31066	265.00
5.29804	253.00
5.28549	270.00
5.27300	292.00
5.26056	268.00
5.24818	256.00
5.23587	269.00
5.22361	318.00
5.21141	259.00
5.19926	261.00
5.18718	291.00
5.17515	264.00
5.16318	264.00
5.15126	286.00
5.13940	284.00
5.12759	287.00
5.11584	284.00
5.10414	306.00
5.09250	280.00
5.08091	279.00
5.06937	321.00
5.05789	322.00
5.04645	307.00
5.03507	295.00
5.02375	300.00
5.01247	324.00
5.00125	350.00
4.99007	329.00
4.97895	309.00
4.96788	309.00
4.95685	298.00
4.94588	322.00
4.93495	309.00
4.92408	319.00
4.91325	362.00
4.90247	348.00
4.89174	333.00
4.88105	326.00
4.87041	339.00
4.85982	340.00
4.84928	341.00
4.83878	366.00
4.82833	359.00
4.81792	355.00
4.80756	378.00
4.79725	353.00
4.78697	370.00
4.77675	382.00
4.76656	358.00
4.75643	348.00
4.74633	367.00
4.73628	358.00
4.72627	353.00
4.71631	351.00
4.70638	384.00
4.69650	410.00
4.68666	378.00
4.67686	348.00
4.66711	403.00
4.65739	410.00
4.64772	373.00
4.63809	384.00
4.62849	351.00
4.61894	424.00
4.60943	402.00
4.59996	452.00
4.59052	413.00
4.58113	394.00
4.57177	398.00
4.56246	415.00
4.55318	412.00
4.54394	420.00
4.53474	406.00
4.52557	395.00
4.51644	429.00
4.50735	414.00
4.49830	443.00
4.48929	410.00
4.48031	446.00
4.47136	431.00
4.46246	453.00
4.45359	457.00
4.44475	447.00
4.43595	420.00
4.42719	446.00
4.41846	431.00
4.40977	463.00
4.40111	452.00
4.39248	456.00
4.38389	475.00
4.37533	437.00
4.36681	461.00
4.35832	496.00
4.34987	480.00
4.34144	480.00
4.33306	463.00
4.32470	462.00
4.31638	443.00
4.30808	472.00
4.29983	485.00
4.29160	455.00
4.28340	458.00
4.27524	462.00
4.26711	510.00
4.25901	495.00
4.25094	506.00
4.24290	450.00
4.23490	501.00
4.22692	509.00
4.21897	490.00
4.21106	514.00
4.20317	477.00
4.19532	476.00
4.18749	481.00
4.17970	462.00
4.17193	510.00
4.16419	496.00
4.15649	487.00
4.14881	505.00
4.14116	513.00
4.13354	475.00
4.12594	490.00
4.11838	518.00
4.11084	522.00
4.10333	492.00
4.09585	539.00
4.08840	512.00
4.08098	511.00
4.07358	546.00
4.06621	485.00
4.05886	499.00
4.05155	465.00
4.04426	495.00
4.03700	535.00
4.02976	533.00
4.02255	514.00
4.01537	515.00
4.00821	498.00
4.00108	542.00
3.99397	509.00
3.98689	515.00
3.97984	516.00
3.97281	527.00
3.96580	520.00
3.95882	498.00
3.95187	551.00
3.94494	566.00
3.93804	509.00
3.93116	538.00
3.92430	515.00
3.91747	516.00
3.91067	531.00
3.90388	518.00
3.89712	534.00
3.89039	507.00
3.88368	483.00
3.87699	508.00
3.87033	554.00
3.86369	534.00
3.85707	504.00
3.85047	554.00
3.84390	575.00
3.83735	523.00
3.83083	535.00
3.82433	551.00
3.81785	511.00
3.81139	544.00
3.80495	545.00
3.79854	532.00
3.79215	566.00
3.78578	541.00
3.77943	520.00
3.77310	536.00
3.76680	486.00
3.76051	517.00
3.75425	533.00
3.74801	543.00
3.74179	530.00
3.73559	526.00
3.72942	532.00
3.72326	555.00
3.71712	523.00
3.71101	506.00
3.70492	545.00
3.69884	531.00
3.69279	587.00
3.68675	571.00
3.68074	521.00
3.67475	536.00
3.66877	527.00
3.66282	563.00
3.65689	573.00
3.65097	536.00
3.64508	488.00
3.63920	517.00
3.63335	556.00
3.62751	538.00
3.62169	533.00
3.61589	511.00
3.61011	515.00
3.60435	557.00
3.59861	534.00
3.59289	551.00
3.58718	525.00
3.58150	543.00
3.57583	524.00
3.57018	538.00
3.56455	514.00
3.55894	516.00
3.55334	516.00
3.54777	520.00
3.54221	532.00
3.53667	544.00
3.53114	529.00
3.52564	511.00
3.52015	533.00
3.51468	538.00
3.50923	480.00
3.50379	500.00
3.49837	512.00
3.49297	524.00
3.48759	532.00
3.48222	526.00
3.47687	510.00
3.47154	534.00
3.46622	484.00
3.46092	552.00
3.45564	502.00
3.45037	483.00
3.44512	563.00
3.43988	501.00
3.43467	521.00
3.42946	530.00
3.42428	518.00
3.41911	507.00
3.41396	510.00
3.40882	513.00
3.40370	554.00
3.39859	514.00
3.39350	518.00
3.38843	521.00
3.38337	599.00
3.37832	475.00
3.37330	512.00
3.36828	499.00
3.36329	512.00
3.35830	491.00
3.35334	427.00
3.34839	564.00
3.34345	518.00
3.33853	497.00
3.33362	490.00
3.32873	538.00
3.32385	477.00
3.31899	508.00
3.31414	477.00
3.30930	490.00
3.30449	468.00
3.29968	507.00
3.29489	508.00
3.29011	513.00
3.28535	500.00
3.28060	461.00
3.27587	521.00
3.27115	480.00
3.26645	486.00
3.26175	501.00
3.25708	467.00
3.25241	508.00
3.24776	463.00
3.24312	478.00
3.23850	508.00
3.23389	446.00
3.22930	478.00
3.22471	490.00
3.22014	500.00
3.21559	476.00
3.21105	473.00
3.20652	458.00
3.20200	501.00
3.19750	465.00
3.19301	456.00
3.18853	495.00
3.18407	480.00
3.17961	458.00
3.17518	476.00
3.17075	514.00
3.16634	512.00
3.16194	464.00
3.15755	490.00
3.15317	475.00
3.14881	465.00
3.14446	501.00
3.14012	475.00
3.13580	465.00
3.13148	475.00
3.12718	456.00
3.12289	478.00
3.11862	466.00
3.11435	449.00
3.11010	447.00
3.10586	456.00
3.10163	496.00
3.09741	465.00
3.09321	474.00
3.08901	506.00
3.08483	477.00
3.08066	479.00
3.07650	471.00
3.07236	438.00
3.06822	477.00
3.06410	520.00
3.05999	430.00
3.05589	460.00
3.05180	449.00
3.04772	447.00
3.04365	466.00
3.03960	484.00
3.03555	466.00
3.03152	457.00
3.02750	456.00
3.02348	455.00
3.01948	453.00
3.01549	418.00
3.01152	455.00
3.00755	473.00
3.00359	438.00
2.99964	445.00
2.99571	450.00
2.99178	435.00
2.98787	449.00
2.98397	448.00
2.98007	436.00
2.97619	443.00
2.97232	430.00
2.96846	496.00
2.96461	455.00
2.96077	404.00
2.95694	473.00
2.95312	428.00
2.94931	441.00
2.94551	423.00
2.94172	433.00
2.93794	449.00
2.93417	391.00
2.93041	457.00
2.92666	436.00
2.92292	461.00
2.91919	481.00
2.91547	401.00
2.91176	403.00
2.90806	405.00
2.90437	404.00
2.90069	453.00
2.89702	441.00
2.89335	422.00
2.88970	451.00
2.88606	393.00
2.88243	431.00
2.87880	435.00
2.87519	389.00
2.87159	449.00
2.86799	412.00
2.86440	404.00
2.86083	449.00
2.85726	415.00
2.85370	404.00
2.85015	400.00
2.84661	433.00
2.84308	402.00
2.83956	401.00
2.83605	371.00
2.83255	418.00
2.82905	407.00
2.82557	391.00
2.82209	400.00
2.81862	406.00
2.81516	352.00
2.81171	389.00
2.80827	412.00
2.80484	378.00
2.80142	397.00
2.79800	386.00
2.79460	396.00
2.79120	393.00
2.78781	442.00
2.78443	422.00
2.78106	356.00
2.77769	374.00
2.77434	418.00
2.77099	378.00
2.76765	387.00
2.76432	397.00
2.76100	382.00
2.75769	388.00
2.75438	416.00
2.75109	378.00
2.74780	415.00
2.74452	373.00
2.74125	412.00
2.73798	380.00
2.73473	410.00
2.73148	399.00
2.72824	395.00
2.72501	377.00
2.72178	337.00
2.71857	388.00
2.71536	381.00
2.71216	364.00
2.70897	372.00
2.70578	386.00
2.70261	357.00
2.69944	382.00
2.69628	395.00
2.69312	328.00
2.68998	349.00
2.68684	357.00
2.68371	363.00
2.68059	360.00
2.67747	340.00
2.67437	327.00
2.67127	350.00
2.66817	396.00
2.66509	353.00
2.66201	362.00
2.65894	396.00
2.65588	366.00
2.65282	347.00
2.64977	377.00
2.64673	297.00
2.64370	349.00
2.64067	339.00
2.63766	397.00
2.63464	354.00
2.63164	345.00
2.62864	326.00
2.62565	322.00
2.62267	347.00
2.61969	367.00
2.61672	355.00
2.61376	360.00
2.61081	328.00
2.60786	378.00
2.60492	329.00
2.60198	317.00
2.59906	337.00
2.59614	331.00
2.59322	334.00
2.59032	290.00
2.58742	316.00
2.58452	285.00
2.58164	348.00
2.57876	342.00
2.57589	347.00
2.57302	321.00
2.57016	278.00
2.56731	321.00
2.56446	337.00
2.56162	300.00
2.55879	291.00
2.55596	297.00
2.55315	315.00
2.55033	299.00
2.54753	313.00
2.54473	291.00
2.54193	301.00
2.53915	288.00
2.53636	312.00
2.53359	314.00
2.53082	330.00
2.52806	283.00
2.52531	321.00
2.52256	293.00
2.51981	271.00
2.51708	300.00
2.51435	296.00
2.51162	282.00
2.50891	297.00
2.50619	309.00
2.50349	323.00
2.50079	323.00
2.49810	284.00
2.49541	285.00
2.49273	291.00
2.49005	298.00
2.48738	293.00
2.48472	294.00
2.48206	319.00
2.47941	263.00
2.47677	289.00
2.47413	289.00
2.47150	295.00
2.46887	268.00
2.46625	295.00
2.46363	273.00
2.46102	279.00
2.45842	297.00
2.45582	271.00
2.45323	295.00
2.45064	278.00
2.44806	227.00
2.44549	277.00
2.44292	278.00
2.44035	278.00
2.43780	272.00
2.43524	265.00
2.43270	275.00
2.43016	305.00
2.42762	254.00
2.42509	275.00
2.42257	261.00
2.42005	259.00
2.41753	242.00
2.41503	257.00
2.41252	265.00
2.41003	264.00
2.40754	255.00
2.40505	263.00
2.40257	234.00
2.40010	266.00
2.39763	251.00
2.39516	268.00
2.39270	281.00
2.39025	250.00
2.38780	269.00
2.38536	263.00
2.38292	242.00
2.38049	251.00
2.37806	256.00
2.37564	236.00
2.37322	257.00
2.37081	250.00
2.36840	271.00
2.36600	221.00
2.36361	234.00
2.36122	226.00
2.35883	235.00
2.35645	228.00
2.35407	231.00
2.35170	263.00
2.34934	240.00
2.34698	251.00
2.34462	247.00
2.34227	246.00
2.33993	249.00
2.33759	274.00
2.33525	210.00
2.33292	282.00
2.33060	255.00
2.32827	221.00
2.32596	240.00
2.32365	253.00
2.32134	220.00
2.31904	227.00
2.31674	230.00
2.31445	245.00
2.31217	223.00
2.30988	229.00
2.30761	231.00
2.30534	220.00
2.30307	227.00
2.30080	257.00
2.29855	230.00
2.29629	236.00
2.29404	233.00
2.29180	227.00
2.28956	238.00
2.28733	261.00
2.28510	242.00
2.28287	228.00
2.28065	249.00
2.27843	223.00
2.27622	234.00
2.27402	225.00
2.27181	237.00
2.26961	257.00
2.26742	222.00
2.26523	251.00
2.26305	227.00
2.26087	235.00
2.25869	215.00
2.25652	235.00
2.25435	238.00
2.25219	206.00
2.25003	230.00
2.24788	266.00
2.24573	215.00
2.24359	226.00
2.24145	228.00
2.23931	223.00
2.23718	228.00
2.23505	265.00
2.23293	228.00
2.23081	210.00
2.22870	228.00
2.22659	229.00
2.22448	212.00
2.22238	248.00
2.22028	267.00
2.21819	216.00
2.21610	233.00
2.21402	258.00
2.21194	245.00
2.20986	244.00
2.20779	265.00
2.20572	242.00
2.20366	235.00
2.20160	243.00
2.19954	224.00
2.19749	235.00
2.19544	248.00
2.19340	230.00
2.19136	231.00
2.18932	221.00
2.18729	223.00
2.18527	242.00
2.18324	224.00
2.18122	242.00
2.17921	214.00
2.17720	241.00
2.17519	246.00
2.17319	228.00
2.17119	239.00
2.16919	218.00
2.16720	235.00
2.16521	234.00
2.16323	231.00
2.16125	202.00
2.15927	241.00
2.15730	238.00
2.15533	247.00
2.15337	237.00
2.15141	246.00
2.14945	211.00
2.14750	232.00
2.14555	209.00
2.14361	246.00
2.14167	228.00
2.13973	238.00
2.13779	193.00
2.13586	218.00
2.13394	241.00
2.13202	255.00
2.13010	247.00
2.12818	226.00
2.12627	230.00
2.12436	223.00
2.12246	256.00
2.12056	254.00
2.11866	217.00
2.11677	226.00
2.11488	240.00
2.11299	225.00
2.11111	223.00
2.10923	218.00
2.10736	251.00
2.10549	242.00
2.10362	201.00
2.10175	235.00
2.09989	240.00
2.09804	253.00
2.09618	220.00
2.09433	225.00
2.09249	238.00
2.09064	217.00
2.08880	251.00
2.08697	233.00
2.08513	228.00
2.08330	242.00
2.08148	231.00
2.07966	242.00
2.07784	220.00
2.07602	224.00
2.07421	214.00
2.07240	231.00
2.07060	241.00
2.06880	242.00
2.06700	238.00
2.06520	219.00
2.06341	216.00
2.06162	238.00
2.05984	243.00
2.05806	256.00
2.05628	248.00
2.05450	201.00
2.05273	196.00
2.05096	217.00
2.04920	202.00
2.04744	188.00
2.04568	216.00
2.04392	216.00
2.04217	198.00
2.04042	253.00
2.03868	204.00
2.03693	185.00
2.03520	214.00
2.03346	194.00
2.03173	207.00
2.03000	211.00
2.02827	240.00
2.02655	226.00
2.02483	219.00
2.02311	229.00
2.02140	219.00
2.01969	214.00
2.01798	231.00
2.01628	236.00
2.01458	215.00
2.01288	179.00
2.01118	219.00
2.00949	213.00
2.00780	226.00
2.00612	225.00
2.00444	218.00
2.00276	230.00
2.00108	235.00
1.99941	206.00
1.99774	212.00
1.99607	210.00
1.99441	221.00
1.99274	238.00
1.99109	218.00
1.98943	194.00
1.98778	221.00
1.98613	238.00
1.98448	219.00
1.98284	233.00
1.98120	224.00
1.97956	217.00
1.97793	238.00
1.97630	235.00
1.97467	213.00
1.97304	238.00
1.97142	236.00
1.96980	201.00
1.96818	206.00
1.96657	213.00
1.96496	194.00
1.96335	227.00
1.96175	194.00
1.96014	211.00
1.95854	192.00
1.95695	205.00
1.95535	206.00
1.95376	183.00
1.95217	208.00
1.95059	217.00
1.94900	244.00
1.94743	226.00
1.94585	186.00
1.94427	212.00
1.94270	211.00
1.94113	222.00
1.93957	224.00
1.93800	223.00
1.93644	208.00
1.93489	205.00
1.93333	250.00
1.93178	205.00
1.93023	205.00
1.92868	216.00
1.92714	174.00
1.92560	187.00
1.92406	201.00
1.92252	232.00
1.92099	210.00
1.91946	201.00
1.91793	196.00
1.91641	189.00
1.91488	197.00
1.91336	207.00
1.91185	206.00
1.91033	216.00
1.90882	188.00
1.90731	206.00
1.90580	209.00
1.90430	211.00
1.90280	209.00
1.90130	196.00
1.89980	193.00
1.89831	197.00
1.89682	198.00
1.89533	193.00
1.89384	213.00
1.89236	203.00
1.89088	224.00
1.88940	206.00
1.88792	210.00
1.88645	203.00
1.88498	197.00
1.88351	226.00
1.88205	182.00
1.88058	177.00
1.87912	203.00
1.87766	182.00
1.87621	201.00
1.87475	182.00
1.87330	207.00
1.87186	197.00
1.87041	205.00
1.86897	213.00
1.86752	210.00
1.86609	199.00
1.86465	179.00
1.86322	181.00
1.86179	202.00
1.86036	202.00
1.85893	200.00
1.85751	189.00
1.85608	210.00
1.85467	179.00
1.85325	188.00
1.85183	208.00
1.85042	192.00
1.84901	188.00
1.84761	210.00
1.84620	190.00
1.84480	189.00
1.84340	173.00
1.84200	211.00
1.84060	207.00
1.83921	225.00
1.83782	219.00
1.83643	199.00
1.83505	196.00
1.83366	221.00
1.83228	180.00
1.83090	192.00
1.82952	186.00
1.82815	198.00
1.82678	210.00
1.82541	205.00
1.82404	200.00
1.82267	188.00
1.82131	216.00
1.81995	198.00
1.81859	197.00
1.81723	183.00
1.81588	212.00
1.81453	178.00
1.81318	203.00
1.81183	179.00
1.81049	190.00
1.80914	203.00
1.80780	200.00
1.80646	187.00
1.80513	178.00
1.80379	195.00
1.80246	181.00
1.80113	196.00
1.79980	202.00
1.79848	171.00
1.79715	192.00
1.79583	192.00
1.79451	184.00
1.79320	196.00
1.79188	191.00
1.79057	175.00
1.78926	178.00
1.78795	195.00
1.78664	168.00
1.78534	194.00
1.78404	186.00
1.78274	171.00
1.78144	178.00
1.78014	172.00
1.77885	197.00
1.77756	170.00
1.77627	202.00
1.77498	194.00
1.77370	212.00
1.77241	175.00
1.77113	182.00
1.76985	196.00
1.76858	183.00
1.76730	190.00
1.76603	188.00
1.76476	180.00
1.76349	199.00
1.76222	212.00
1.76096	199.00
1.75970	197.00
1.75843	208.00
1.75718	208.00
1.75592	195.00
1.75466	203.00
1.75341	182.00
1.75216	196.00
1.75091	203.00
1.74967	188.00
1.74842	182.00
1.74718	176.00
1.74594	181.00
1.74470	211.00
1.74346	188.00
1.74223	177.00
1.74100	193.00
1.73976	187.00
1.73854	208.00
1.73731	180.00
1.73608	208.00
1.73486	202.00
1.73364	190.00
1.73242	207.00
1.73120	175.00
1.72999	195.00
1.72877	197.00
1.72756	207.00
1.72635	171.00
1.72515	183.00
1.72394	190.00
1.72274	204.00
1.72153	171.00
1.72033	171.00
1.71914	197.00
1.71794	192.00
1.71675	194.00
1.71555	192.00
1.71436	169.00
1.71317	193.00
1.71199	174.00
1.71080	213.00
1.70962	181.00
1.70844	179.00
1.70726	219.00
1.70608	177.00
1.70490	163.00
1.70373	211.00
1.70256	180.00
1.70139	199.00
1.70022	201.00
1.69905	157.00
1.69788	204.00
1.69672	167.00
1.69556	214.00
1.69440	175.00
1.69324	179.00
1.69209	170.00
1.69093	204.00
1.68978	197.00
1.68863	206.00
1.68748	182.00
1.68633	174.00
1.68519	182.00
1.68404	174.00
1.68290	179.00
1.68176	181.00
1.68062	178.00
1.67949	174.00
1.67835	175.00
1.67722	193.00
1.67609	193.00
1.67496	200.00
1.67383	181.00
1.67270	203.00
1.67158	184.00
1.67045	194.00
1.66933	189.00
1.66821	208.00
1.66710	194.00
1.66598	198.00
1.66487	177.00
1.66375	191.00
1.66264	183.00
1.66153	195.00
1.66042	206.00
1.65932	170.00
1.65821	178.00
1.65711	186.00
1.65601	199.00
1.65491	188.00
1.65381	200.00
1.65272	201.00
1.65162	173.00
1.65053	174.00
1.64944	187.00
1.64835	173.00
1.64726	183.00
1.64618	182.00
1.64509	173.00
1.64401	186.00
1.64293	188.00
1.64185	198.00
1.64077	201.00
1.63969	198.00
1.63862	191.00
1.63755	191.00
1.63648	175.00
1.63541	182.00
1.63434	195.00
1.63327	182.00
1.63220	177.00
1.63114	184.00
1.63008	177.00
1.62902	174.00
1.62796	177.00
1.62690	193.00
1.62585	185.00
1.62479	194.00
1.62374	193.00
1.62269	172.00
1.62164	200.00
1.62059	196.00
1.61955	219.00
1.61850	196.00
1.61746	186.00
1.61642	176.00
1.61538	181.00
1.61434	187.00
1.61330	190.00
1.61226	201.00
1.61123	189.00
1.61020	201.00
1.60917	188.00
1.60814	197.00
1.60711	182.00
1.60608	176.00
1.60506	183.00
1.60403	205.00
1.60301	194.00
1.60199	204.00
1.60097	175.00
1.59996	183.00
1.59894	184.00
1.59793	175.00
1.59691	205.00
1.59590	207.00
1.59489	186.00
1.59388	177.00
1.59288	180.00
1.59187	187.00
1.59087	195.00
1.58986	206.00
1.58886	189.00
1.58786	199.00
1.58686	162.00
1.58587	191.00
1.58487	194.00
1.58388	168.00
1.58288	183.00
1.58189	195.00
1.58090	204.00
1.57991	202.00
1.57893	177.00
1.57794	184.00
1.57696	178.00
1.57598	177.00
1.57499	169.00
1.57401	177.00
1.57304	198.00
1.57206	193.00
1.57108	183.00
1.57011	169.00
1.56914	192.00
1.56817	208.00
1.56720	193.00
1.56623	174.00
1.56526	195.00
1.56429	195.00
1.56333	180.00
1.56237	184.00
1.56140	196.00
1.56044	185.00
1.55949	204.00
1.55853	211.00
1.55757	194.00
1.55662	215.00
1.55566	195.00
1.55471	191.00
1.55376	176.00
1.55281	198.00
1.55186	216.00
1.55092	212.00
1.54997	186.00
1.54903	172.00
1.54808	180.00
1.54714	189.00
1.54620	169.00
1.54526	169.00
1.54433	194.00
1.54339	171.00
1.54246	205.00
1.54152	176.00
1.54059	174.00