File: Datasets/xrd_sample.xy
XRD_sample ‚óè Full Chart
Wavelength = 1.54059
5	117.00
5.04	101.00
5.08	124.00
5.12	96.00
5.16	123.00
5.2	96.00
5.24	90.00
5.28	122.00
5.32	99.00
5.36	108.00
5.4	95.00
5.44	115.00
5.48	97.00
5.52	90.00
5.56	105.00
5.6	105.00
5.64	90.00
5.68	129.00
5.72	113.00
5.76	115.00
5.8	108.00
5.84	110.00
5.88	103.00
5.92	111.00
5.96	132.00
6	107.00
6.04	125.00
6.08	104.00
6.12	101.00
6.16	92.00
6.2	105.00
6.24	95.00
6.28	117.00
6.32	99.00
6.36	100.00
6.4	125.00
6.44	104.00
6.48	105.00
6.52	120.00
6.56	111.00
6.6	100.00
6.64	94.00
6.68	112.00
6.72	98.00
6.76	143.00
6.8	114.00
6.84	113.00
6.88	95.00
6.92	111.00
6.96	114.00
7	113.00
7.04	99.00
7.08	104.00
7.12	107.00
7.16	100.00
7.2	105.00
7.24	99.00
7.28	89.00
7.32	101.00
7.36	107.00
7.4	134.00
7.44	92.00
7.48	96.00
7.52	105.00
7.56	121.00
7.6	123.00
7.64	117.00
7.68	122.00
7.72	101.00
7.76	120.00
7.8	99.00
7.84	106.00
7.88	99.00
7.92	116.00
7.96	108.00
8	109.00
8.04	104.00
8.08	113.00
8.12	117.00
8.16	133.00
8.2	100.00
8.24	127.00
8.28	122.00
8.32	109.00
8.36	113.00
8.4	118.00
8.44	91.00
8.48	106.00
8.52	111.00
8.56	121.00
8.6	100.00
8.64	113.00
8.68	115.00
8.72	114.00
8.76	126.00
8.8	98.00
8.84	122.00
8.88	123.00
8.92	138.00
8.96	131.00
9	120.00
9.04	109.00
9.08	100.00
9.12	127.00
9.16	116.00
9.2	117.00
9.24	120.00
9.28	107.00
9.32	117.00
9.36	113.00
9.4	123.00
9.44	114.00
9.48	138.00
9.52	108.00
9.56	118.00
9.6	115.00
9.64	137.00
9.68	119.00
9.72	116.00
9.76	127.00
9.8	140.00
9.84	118.00
9.88	118.00
9.92	126.00
9.96	119.00
10	134.00
10.04	109.00
10.08	131.00
10.12	134.00
10.16	121.00
10.2	134.00
10.24	131.00
10.28	122.00
10.32	123.00
10.36	118.00
10.4	128.00
10.44	115.00
10.48	123.00
10.52	125.00
10.56	134.00
10.6	147.00
10.64	130.00
10.68	149.00
10.72	138.00
10.76	100.00
10.8	136.00
10.84	116.00
10.88	124.00
10.92	127.00
10.96	119.00
11	124.00
11.04	128.00
11.08	125.00
11.12	136.00
11.16	137.00
11.2	127.00
11.24	141.00
11.28	156.00
11.32	119.00
11.36	122.00
11.4	111.00
11.44	128.00
11.48	143.00
11.52	132.00
11.56	136.00
11.6	123.00
11.64	142.00
11.68	142.00
11.72	124.00
11.76	136.00
11.8	143.00
11.84	131.00
11.88	163.00
11.92	135.00
11.96	143.00
12	144.00
12.04	154.00
12.08	148.00
12.12	155.00
12.16	142.00
12.2	145.00
12.24	155.00
12.28	155.00
12.32	131.00
12.36	144.00
12.4	170.00
12.44	167.00
12.48	145.00
12.52	151.00
12.56	173.00
12.6	127.00
12.64	147.00
12.68	159.00
12.72	152.00
12.76	166.00
12.8	159.00
12.84	156.00
12.88	175.00
12.92	150.00
12.96	153.00
13	179.00
13.04	174.00
13.08	149.00
13.12	158.00
13.16	165.00
13.2	161.00
13.24	163.00
13.28	152.00
13.32	161.00
13.36	169.00
13.4	163.00
13.44	189.00
13.48	152.00
13.52	155.00
13.56	181.00
13.6	169.00
13.64	158.00
13.68	185.00
13.72	168.00
13.76	171.00
13.8	171.00
13.84	167.00
13.88	181.00
13.92	165.00
13.96	177.00
14	186.00
14.04	174.00
14.08	182.00
14.12	173.00
14.16	187.00
14.2	193.00
14.24	202.00
14.28	173.00
14.32	178.00
14.36	190.00
14.4	217.00
14.44	169.00
14.48	191.00
14.52	171.00
14.56	199.00
14.6	166.00
14.64	202.00
14.68	175.00
14.72	192.00
14.76	205.00
14.8	192.00
14.84	201.00
14.88	189.00
14.92	198.00
14.96	198.00
15	216.00
15.04	212.00
15.08	205.00
15.12	213.00
15.16	225.00
15.2	197.00
15.24	212.00
15.28	207.00
15.32	203.00
15.36	219.00
15.4	241.00
15.44	224.00
15.48	229.00
15.52	198.00
15.56	240.00
15.6	200.00
15.64	228.00
15.68	245.00
15.72	193.00
15.76	228.00
15.8	222.00
15.84	208.00
15.88	231.00
15.92	225.00
15.96	244.00
16	215.00
16.04	251.00
16.08	231.00
16.12	217.00
16.16	240.00
16.2	246.00
16.24	247.00
16.28	250.00
16.32	249.00
16.36	225.00
16.4	265.00
16.44	235.00
16.48	263.00
16.52	237.00
16.56	249.00
16.6	269.00
16.64	270.00
16.68	265.00
16.72	253.00
16.76	270.00
16.8	292.00
16.84	268.00
16.88	256.00
16.92	269.00
16.96	318.00
17	259.00
17.04	261.00
17.08	291.00
17.12	264.00
17.16	264.00
17.2	286.00
17.24	284.00
17.28	287.00
17.32	284.00
17.36	306.00
17.4	280.00
17.44	279.00
17.48	321.00
17.52	322.00
17.56	307.00
17.6	295.00
17.64	300.00
17.68	324.00
17.72	350.00
17.76	329.00
17.8	309.00
17.84	309.00
17.88	298.00
17.92	322.00
17.96	309.00
18	319.00
18.04	362.00
18.08	348.00
18.12	333.00
18.16	326.00
18.2	339.00
18.24	340.00
18.28	341.00
18.32	366.00
18.36	359.00
18.4	355.00
18.44	378.00
18.48	353.00
18.52	370.00
18.56	382.00
18.6	358.00
18.64	348.00
18.68	367.00
18.72	358.00
18.76	353.00
18.8	351.00
18.84	384.00
18.88	410.00
18.92	378.00
18.96	348.00
19	403.00
19.04	410.00
19.08	373.00
19.12	384.00
19.16	351.00
19.2	424.00
19.24	402.00
19.28	452.00
19.32	413.00
19.36	394.00
19.4	398.00
19.44	415.00
19.48	412.00
19.52	420.00
19.56	406.00
19.6	395.00
19.64	429.00
19.68	414.00
19.72	443.00
19.76	410.00
19.8	446.00
19.84	431.00
19.88	453.00
19.92	457.00
19.96	447.00
20	420.00
20.04	446.00
20.08	431.00
20.12	463.00
20.16	452.00
20.2	456.00
20.24	475.00
20.28	437.00
20.32	461.00
20.36	496.00
20.4	480.00
20.44	480.00
20.48	463.00
20.52	462.00
20.56	443.00
20.6	472.00
20.64	485.00
20.68	455.00
20.72	458.00
20.76	462.00
20.8	510.00
20.84	495.00
20.88	506.00
20.92	450.00
20.96	501.00
21	509.00
21.04	490.00
21.08	514.00
21.12	477.00
21.16	476.00
21.2	481.00
21.24	462.00
21.28	510.00
21.32	496.00
21.36	487.00
21.4	505.00
21.44	513.00
21.48	475.00
21.52	490.00
21.56	518.00
21.6	522.00
21.64	492.00
21.68	539.00
21.72	512.00
21.76	511.00
21.8	546.00
21.84	485.00
21.88	499.00
21.92	465.00
21.96	495.00
22	535.00
22.04	533.00
22.08	514.00
22.12	515.00
22.16	498.00
22.2	542.00
22.24	509.00
22.28	515.00
22.32	516.00
22.36	527.00
22.4	520.00
22.44	498.00
22.48	551.00
22.52	566.00
22.56	509.00
22.6	538.00
22.64	515.00
22.68	516.00
22.72	531.00
22.76	518.00
22.8	534.00
22.84	507.00
22.88	483.00
22.92	508.00
22.96	554.00
23	534.00
23.04	504.00
23.08	554.00
23.12	575.00
23.16	523.00
23.2	535.00
23.24	551.00
23.28	511.00
23.32	544.00
23.36	545.00
23.4	532.00
23.44	566.00
23.48	541.00
23.52	520.00
23.56	536.00
23.6	486.00
23.64	517.00
23.68	533.00
23.72	543.00
23.76	530.00
23.8	526.00
23.84	532.00
23.88	555.00
23.92	523.00
23.96	506.00
24	545.00
24.04	531.00
24.08	587.00
24.12	571.00
24.16	521.00
24.2	536.00
24.24	527.00
24.28	563.00
24.32	573.00
24.36	536.00
24.4	488.00
24.44	517.00
24.48	556.00
24.52	538.00
24.56	533.00
24.6	511.00
24.64	515.00
24.68	557.00
24.72	534.00
24.76	551.00
24.8	525.00
24.84	543.00
24.88	524.00
24.92	538.00
24.96	514.00
25	516.00
25.04	516.00
25.08	520.00
25.12	532.00
25.16	544.00
25.2	529.00
25.24	511.00
25.28	533.00
25.32	538.00
25.36	480.00
25.4	500.00
25.44	512.00
25.48	524.00
25.52	532.00
25.56	526.00
25.6	510.00
25.64	534.00
25.68	484.00
25.72	552.00
25.76	502.00
25.8	483.00
25.84	563.00
25.88	501.00
25.92	521.00
25.96	530.00
26	518.00
26.04	507.00
26.08	510.00
26.12	513.00
26.16	554.00
26.2	514.00
26.24	518.00
26.28	521.00
26.32	599.00
26.36	475.00
26.4	512.00
26.44	499.00
26.48	512.00
26.52	491.00
26.56	427.00
26.6	564.00
26.64	518.00
26.68	497.00
26.72	490.00
26.76	538.00
26.8	477.00
26.84	508.00
26.88	477.00
26.92	490.00
26.96	468.00
27	507.00
27.04	508.00
27.08	513.00
27.12	500.00
27.16	461.00
27.2	521.00
27.24	480.00
27.28	486.00
27.32	501.00
27.36	467.00
27.4	508.00
27.44	463.00
27.48	478.00
27.52	508.00
27.56	446.00
27.6	478.00
27.64	490.00
27.68	500.00
27.72	476.00
27.76	473.00
27.8	458.00
27.84	501.00
27.88	465.00
27.92	456.00
27.96	495.00
28	480.00
28.04	458.00
28.08	476.00
28.12	514.00
28.16	512.00
28.2	464.00
28.24	490.00
28.28	475.00
28.32	465.00
28.36	501.00
28.4	475.00
28.44	465.00
28.48	475.00
28.52	456.00
28.56	478.00
28.6	466.00
28.64	449.00
28.68	447.00
28.72	456.00
28.76	496.00
28.8	465.00
28.84	474.00
28.88	506.00
28.92	477.00
28.96	479.00
29	471.00
29.04	438.00
29.08	477.00
29.12	520.00
29.16	430.00
29.2	460.00
29.24	449.00
29.28	447.00
29.32	466.00
29.36	484.00
29.4	466.00
29.44	457.00
29.48	456.00
29.52	455.00
29.56	453.00
29.6	418.00
29.64	455.00
29.68	473.00
29.72	438.00
29.76	445.00
29.8	450.00
29.84	435.00
29.88	449.00
29.92	448.00
29.96	436.00
30	443.00
30.04	430.00
30.08	496.00
30.12	455.00
30.16	404.00
30.2	473.00
30.24	428.00
30.28	441.00
30.32	423.00
30.36	433.00
30.4	449.00
30.44	391.00
30.48	457.00
30.52	436.00
30.56	461.00
30.6	481.00
30.64	401.00
30.68	403.00
30.72	405.00
30.76	404.00
30.8	453.00
30.84	441.00
30.88	422.00
30.92	451.00
30.96	393.00
31	431.00
31.04	435.00
31.08	389.00
31.12	449.00
31.16	412.00
31.2	404.00
31.24	449.00
31.28	415.00
31.32	404.00
31.36	400.00
31.4	433.00
31.44	402.00
31.48	401.00
31.52	371.00
31.56	418.00
31.6	407.00
31.64	391.00
31.68	400.00
31.72	406.00
31.76	352.00
31.8	389.00
31.84	412.00
31.88	378.00
31.92	397.00
31.96	386.00
32	396.00
32.04	393.00
32.08	442.00
32.12	422.00
32.16	356.00
32.2	374.00
32.24	418.00
32.28	378.00
32.32	387.00
32.36	397.00
32.4	382.00
32.44	388.00
32.48	416.00
32.52	378.00
32.56	415.00
32.6	373.00
32.64	412.00
32.68	380.00
32.72	410.00
32.76	399.00
32.8	395.00
32.84	377.00
32.88	337.00
32.92	388.00
32.96	381.00
33	364.00
33.04	372.00
33.08	386.00
33.12	357.00
33.16	382.00
33.2	395.00
33.24	328.00
33.28	349.00
33.32	357.00
33.36	363.00
33.4	360.00
33.44	340.00
33.48	327.00
33.52	350.00
33.56	396.00
33.6	353.00
33.64	362.00
33.68	396.00
33.72	366.00
33.76	347.00
33.8	377.00
33.84	297.00
33.88	349.00
33.92	339.00
33.96	397.00
34	354.00
34.04	345.00
34.08	326.00
34.12	322.00
34.16	347.00
34.2	367.00
34.24	355.00
34.28	360.00
34.32	328.00
34.36	378.00
34.4	329.00
34.44	317.00
34.48	337.00
34.52	331.00
34.56	334.00
34.6	290.00
34.64	316.00
34.68	285.00
34.72	348.00
34.76	342.00
34.8	347.00
34.84	321.00
34.88	278.00
34.92	321.00
34.96	337.00
35	300.00
35.04	291.00
35.08	297.00
35.12	315.00
35.16	299.00
35.2	313.00
35.24	291.00
35.28	301.00
35.32	288.00
35.36	312.00
35.4	314.00
35.44	330.00
35.48	283.00
35.52	321.00
35.56	293.00
35.6	271.00
35.64	300.00
35.68	296.00
35.72	282.00
35.76	297.00
35.8	309.00
35.84	323.00
35.88	323.00
35.92	284.00
35.96	285.00
36	291.00
36.04	298.00
36.08	293.00
36.12	294.00
36.16	319.00
36.2	263.00
36.24	289.00
36.28	289.00
36.32	295.00
36.36	268.00
36.4	295.00
36.44	273.00
36.48	279.00
36.52	297.00
36.56	271.00
36.6	295.00
36.64	278.00
36.68	227.00
36.72	277.00
36.76	278.00
36.8	278.00
36.84	272.00
36.88	265.00
36.92	275.00
36.96	305.00
37	254.00
37.04	275.00
37.08	261.00
37.12	259.00
37.16	242.00
37.2	257.00
37.24	265.00
37.28	264.00
37.32	255.00
37.36	263.00
37.4	234.00
37.44	266.00
37.48	251.00
37.52	268.00
37.56	281.00
37.6	250.00
37.64	269.00
37.68	263.00
37.72	242.00
37.76	251.00
37.8	256.00
37.84	236.00
37.88	257.00
37.92	250.00
37.96	271.00
38	221.00
38.04	234.00
38.08	226.00
38.12	235.00
38.16	228.00
38.2	231.00
38.24	263.00
38.28	240.00
38.32	251.00
38.36	247.00
38.4	246.00
38.44	249.00
38.48	274.00
38.52	210.00
38.56	282.00
38.6	255.00
38.64	221.00
38.68	240.00
38.72	253.00
38.76	220.00
38.8	227.00
38.84	230.00
38.88	245.00
38.92	223.00
38.96	229.00
39	231.00
39.04	220.00
39.08	227.00
39.12	257.00
39.16	230.00
39.2	236.00
39.24	233.00
39.28	227.00
39.32	238.00
39.36	261.00
39.4	242.00
39.44	228.00
39.48	249.00
39.52	223.00
39.56	234.00
39.6	225.00
39.64	237.00
39.68	257.00
39.72	222.00
39.76	251.00
39.8	227.00
39.84	235.00
39.88	215.00
39.92	235.00
39.96	238.00
40	206.00
40.04	230.00
40.08	266.00
40.12	215.00
40.16	226.00
40.2	228.00
40.24	223.00
40.28	228.00
40.32	265.00
40.36	228.00
40.4	210.00
40.44	228.00
40.48	229.00
40.52	212.00
40.56	248.00
40.6	267.00
40.64	216.00
40.68	233.00
40.72	258.00
40.76	245.00
40.8	244.00
40.84	265.00
40.88	242.00
40.92	235.00
40.96	243.00
41	224.00
41.04	235.00
41.08	248.00
41.12	230.00
41.16	231.00
41.2	221.00
41.24	223.00
41.28	242.00
41.32	224.00
41.36	242.00
41.4	214.00
41.44	241.00
41.48	246.00
41.52	228.00
41.56	239.00
41.6	218.00
41.64	235.00
41.68	234.00
41.72	231.00
41.76	202.00
41.8	241.00
41.84	238.00
41.88	247.00
41.92	237.00
41.96	246.00
42	211.00
42.04	232.00
42.08	209.00
42.12	246.00
42.16	228.00
42.2	238.00
42.24	193.00
42.28	218.00
42.32	241.00
42.36	255.00
42.4	247.00
42.44	226.00
42.48	230.00
42.52	223.00
42.56	256.00
42.6	254.00
42.64	217.00
42.68	226.00
42.72	240.00
42.76	225.00
42.8	223.00
42.84	218.00
42.88	251.00
42.92	242.00
42.96	201.00
43	235.00
43.04	240.00
43.08	253.00
43.12	220.00
43.16	225.00
43.2	238.00
43.24	217.00
43.28	251.00
43.32	233.00
43.36	228.00
43.4	242.00
43.44	231.00
43.48	242.00
43.52	220.00
43.56	224.00
43.6	214.00
43.64	231.00
43.68	241.00
43.72	242.00
43.76	238.00
43.8	219.00
43.84	216.00
43.88	238.00
43.92	243.00
43.96	256.00
44	248.00
44.04	201.00
44.08	196.00
44.12	217.00
44.16	202.00
44.2	188.00
44.24	216.00
44.28	216.00
44.32	198.00
44.36	253.00
44.4	204.00
44.44	185.00
44.48	214.00
44.52	194.00
44.56	207.00
44.6	211.00
44.64	240.00
44.68	226.00
44.72	219.00
44.76	229.00
44.8	219.00
44.84	214.00
44.88	231.00
44.92	236.00
44.96	215.00
45	179.00
45.04	219.00
45.08	213.00
45.12	226.00
45.16	225.00
45.2	218.00
45.24	230.00
45.28	235.00
45.32	206.00
45.36	212.00
45.4	210.00
45.44	221.00
45.48	238.00
45.52	218.00
45.56	194.00
45.6	221.00
45.64	238.00
45.68	219.00
45.72	233.00
45.76	224.00
45.8	217.00
45.84	238.00
45.88	235.00
45.92	213.00
45.96	238.00
46	236.00
46.04	201.00
46.08	206.00
46.12	213.00
46.16	194.00
46.2	227.00
46.24	194.00
46.28	211.00
46.32	192.00
46.36	205.00
46.4	206.00
46.44	183.00
46.48	208.00
46.52	217.00
46.56	244.00
46.6	226.00
46.64	186.00
46.68	212.00
46.72	211.00
46.76	222.00
46.8	224.00
46.84	223.00
46.88	208.00
46.92	205.00
46.96	250.00
47	205.00
47.04	205.00
47.08	216.00
47.12	174.00
47.16	187.00
47.2	201.00
47.24	232.00
47.28	210.00
47.32	201.00
47.36	196.00
47.4	189.00
47.44	197.00
47.48	207.00
47.52	206.00
47.56	216.00
47.6	188.00
47.64	206.00
47.68	209.00
47.72	211.00
47.76	209.00
47.8	196.00
47.84	193.00
47.88	197.00
47.92	198.00
47.96	193.00
48	213.00
48.04	203.00
48.08	224.00
48.12	206.00
48.16	210.00
48.2	203.00
48.24	197.00
48.28	226.00
48.32	182.00
48.36	177.00
48.4	203.00
48.44	182.00
48.48	201.00
48.52	182.00
48.56	207.00
48.6	197.00
48.64	205.00
48.68	213.00
48.72	210.00
48.76	199.00
48.8	179.00
48.84	181.00
48.88	202.00
48.92	202.00
48.96	200.00
49	189.00
49.04	210.00
49.08	179.00
49.12	188.00
49.16	208.00
49.2	192.00
49.24	188.00
49.28	210.00
49.32	190.00
49.36	189.00
49.4	173.00
49.44	211.00
49.48	207.00
49.52	225.00
49.56	219.00
49.6	199.00
49.64	196.00
49.68	221.00
49.72	180.00
49.76	192.00
49.8	186.00
49.84	198.00
49.88	210.00
49.92	205.00
49.96	200.00
50	188.00
50.04	216.00
50.08	198.00
50.12	197.00
50.16	183.00
50.2	212.00
50.24	178.00
50.28	203.00
50.32	179.00
50.36	190.00
50.4	203.00
50.44	200.00
50.48	187.00
50.52	178.00
50.56	195.00
50.6	181.00
50.64	196.00
50.68	202.00
50.72	171.00
50.76	192.00
50.8	192.00
50.84	184.00
50.88	196.00
50.92	191.00
50.96	175.00
51	178.00
51.04	195.00
51.08	168.00
51.12	194.00
51.16	186.00
51.2	171.00
51.24	178.00
51.28	172.00
51.32	197.00
51.36	170.00
51.4	202.00
51.44	194.00
51.48	212.00
51.52	175.00
51.56	182.00
51.6	196.00
51.64	183.00
51.68	190.00
51.72	188.00
51.76	180.00
51.8	199.00
51.84	212.00
51.88	199.00
51.92	197.00
51.96	208.00
52	208.00
52.04	195.00
52.08	203.00
52.12	182.00
52.16	196.00
52.2	203.00
52.24	188.00
52.28	182.00
52.32	176.00
52.36	181.00
52.4	211.00
52.44	188.00
52.48	177.00
52.52	193.00
52.56	187.00
52.6	208.00
52.64	180.00
52.68	208.00
52.72	202.00
52.76	190.00
52.8	207.00
52.84	175.00
52.88	195.00
52.92	197.00
52.96	207.00
53	171.00
53.04	183.00
53.08	190.00
53.12	204.00
53.16	171.00
53.2	171.00
53.24	197.00
53.28	192.00
53.32	194.00
53.36	192.00
53.4	169.00
53.44	193.00
53.48	174.00
53.52	213.00
53.56	181.00
53.6	179.00
53.64	219.00
53.68	177.00
53.72	163.00
53.76	211.00
53.8	180.00
53.84	199.00
53.88	201.00
53.92	157.00
53.96	204.00
54	167.00
54.04	214.00
54.08	175.00
54.12	179.00
54.16	170.00
54.2	204.00
54.24	197.00
54.28	206.00
54.32	182.00
54.36	174.00
54.4	182.00
54.44	174.00
54.48	179.00
54.52	181.00
54.56	178.00
54.6	174.00
54.64	175.00
54.68	193.00
54.72	193.00
54.76	200.00
54.8	181.00
54.84	203.00
54.88	184.00
54.92	194.00
54.96	189.00
55	208.00
55.04	194.00
55.08	198.00
55.12	177.00
55.16	191.00
55.2	183.00
55.24	195.00
55.28	206.00
55.32	170.00
55.36	178.00
55.4	186.00
55.44	199.00
55.48	188.00
55.52	200.00
55.56	201.00
55.6	173.00
55.64	174.00
55.68	187.00
55.72	173.00
55.76	183.00
55.8	182.00
55.84	173.00
55.88	186.00
55.92	188.00
55.96	198.00
56	201.00
56.04	198.00
56.08	191.00
56.12	191.00
56.16	175.00
56.2	182.00
56.24	195.00
56.28	182.00
56.32	177.00
56.36	184.00
56.4	177.00
56.44	174.00
56.48	177.00
56.52	193.00
56.56	185.00
56.6	194.00
56.64	193.00
56.68	172.00
56.72	200.00
56.76	196.00
56.8	219.00
56.84	196.00
56.88	186.00
56.92	176.00
56.96	181.00
57	187.00
57.04	190.00
57.08	201.00
57.12	189.00
57.16	201.00
57.2	188.00
57.24	197.00
57.28	182.00
57.32	176.00
57.36	183.00
57.4	205.00
57.44	194.00
57.48	204.00
57.52	175.00
57.56	183.00
57.6	184.00
57.64	175.00
57.68	205.00
57.72	207.00
57.76	186.00
57.8	177.00
57.84	180.00
57.88	187.00
57.92	195.00
57.96	206.00
58	189.00
58.04	199.00
58.08	162.00
58.12	191.00
58.16	194.00
58.2	168.00
58.24	183.00
58.28	195.00
58.32	204.00
58.36	202.00
58.4	177.00
58.44	184.00
58.48	178.00
58.52	177.00
58.56	169.00
58.6	177.00
58.64	198.00
58.68	193.00
58.72	183.00
58.76	169.00
58.8	192.00
58.84	208.00
58.88	193.00
58.92	174.00
58.96	195.00
59	195.00
59.04	180.00
59.08	184.00
59.12	196.00
59.16	185.00
59.2	204.00
59.24	211.00
59.28	194.00
59.32	215.00
59.36	195.00
59.4	191.00
59.44	176.00
59.48	198.00
59.52	216.00
59.56	212.00
59.6	186.00
59.64	172.00
59.68	180.00
59.72	189.00
59.76	169.00
59.8	169.00
59.84	194.00
59.88	171.00
59.92	205.00
59.96	176.00
60	174.00